pink,pra_duration,emo_pic,duration,starduration,posx,posy,pra_trials.thisRepN,pra_trials.thisTrialN,pra_trials.thisN,pra_trials.thisIndex,trials.thisRepN,trials.thisTrialN,trials.thisN,trials.thisIndex,textreproductionstart.started,scale.started,key_next.started,scale.response,scale.rt,key_next.keys,key_next.rt,textWelcomeMessage.started,keyWelcome.started,keyWelcome.keys,keyWelcome.rt,textblank1000.started,sound_1.started,textblank1000.stopped,image.started,image.stopped,textrest.started,textready.started,sound_2.started,textrest.stopped,textready.stopped,start_2.started,start_3.started,start_3.keys,start_3.rt,emopic.started,redstar.started,redstar.stopped,emopic.stopped,textEndMessage.started,keyEnd.started,textEndMessage.stopped,keyEnd.stopped,keyEnd.keys,participant,session,date,expName,psychopyVersion,frameRate,
,,,,,,,,,,,,,,,51.35436470003333,51.35436470003333,51.35436470003333,4.5949074074074066,89.75023400003556,space,160.27175790001638,,,,,,,,,,,,,,,,,,,,,,,,,,,,004,001,2023-05-31_17h32.50.612,time_exp,2022.2.5,60.01601229619099,
,,,,,,,,,,,,,,,,,,,,,,211.6653393000597,211.6653393000597,space,1.464322799933143,,,,,,,,,,,,,,,,,,,,,,,,004,001,2023-05-31_17h32.50.612,time_exp,2022.2.5,60.01601229619099,
pink.png,2,,,,,,0,0,0,1,,,,,216.26521660003345,216.26521660003345,216.26521660003345,2.2569444444444446,4.766944600036368,space,29.984795800060965,,,,,213.14850250002928,213.14848003996303,214.24851860001218,214.24851860001218,216.26521660003345,246.2823614999652,271.26609309995547,271.2660839399905,271.28272260003723,276.26616899995133,,,,,,,,,,,,,,004,001,2023-05-31_17h32.50.612,time_exp,2022.2.5,60.01601229619099,
pink.png,6,,,,,,0,1,1,2,,,,,283.3162808000343,283.3162808000343,283.3162808000343,5.590277777777778,3.3002364999847487,space,21.461865599965677,,,,,276.26616899995133,276.26615593995666,277.29951779998373,277.29951779998373,283.3162808000343,304.7999225000385,329.78365290001966,329.7836679400061,329.80032020004,334.7837620000355,,,,,,,,,,,,,,004,001,2023-05-31_17h32.50.612,time_exp,2022.2.5,60.01601229619099,
pink.png,4,,,,,,0,2,2,0,,,,,339.83382020005956,339.83382020005956,339.83382020005956,3.136574074074074,3.533540099975653,space,13.649434400023893,,,,,334.7837620000355,334.7837500400492,335.81708529999014,335.81708529999014,339.83382020005956,353.5174070999492,378.50112839997746,378.50108123995597,378.5177899999544,383.5012071999954,,,,,,,,,,,,,,004,001,2023-05-31_17h32.50.612,time_exp,2022.2.5,60.01601229619099,
,,,,,,,,,,,,,,,,,,,,,,,,,,,,,,,,,,,,383.5012071999954,383.5012071999954,space,1.9963449999922886,,,,,,,,,,004,001,2023-05-31_17h32.50.612,time_exp,2022.2.5,60.01601229619099,
,,emo_pic\pnegative_low_6010.jpg,3,0.1552196,0,0.4,,,,,0,0,0,5,389.5843152999878,389.5843152999878,389.5843152999878,2.6504629629629632,4.700408500037156,space,20.153645500075072,,,,,385.5178817999549,385.51786334003555,386.5681818999583,,,409.76829569996335,434.7520259000594,434.7520077400259,434.76869000005536,439.7521022000583,,,,,386.5681818999583,386.66788920003455,387.6674919000361,389.5843152999878,,,,,,004,001,2023-05-31_17h32.50.612,time_exp,2022.2.5,60.01601229619099,
,,emo_pic\pnegative_high_1120.jpg,7,0.0561269,0.7,0,,,,,0,1,1,11,447.78523859998677,447.78523859998677,447.78523859998677,4.652777777777778,1.7002245000330731,space,9.456363399978727,,,,,439.7521022000583,439.7520933399792,440.7687881999882,,,457.268730700016,482.25244820001535,482.25240934005706,482.269118300057,487.252515799948,,,,,440.7687881999882,440.8187919999473,441.81835029996,447.78523859998677,,,,,,004,001,2023-05-31_17h32.50.612,time_exp,2022.2.5,60.01601229619099,
,,emo_pic\pneutral_5500.jpg,1,0.1384903,0,-0.4,,,,,0,2,2,0,489.41924409999046,489.41924409999046,489.41924409999046,0.6250000000000002,4.767258399981074,space,13.982740700012073,,,,,487.252515799948,487.252517140063,488.2692092000507,,,503.4364577999804,528.4201867999509,528.420166040014,528.4368461000267,533.4202622000594,,,,,488.2692092000507,488.40254749997985,489.41924409999046,489.2692422999535,,,,,,004,001,2023-05-31_17h32.50.612,time_exp,2022.2.5,60.01601229619099,
,,emo_pic\positive_high_8492.jpg,1,0.1384903,0,-0.4,,,,,0,3,3,16,535.5865123999538,535.5865123999538,535.5865123999538,0.7986111111111114,4.2835954000474885,space,12.072506499942392,,,,,533.4202622000594,533.4202466400457,534.4369114000583,,,547.6871595999692,572.6708820000058,572.6708370400011,572.6875504000345,577.6709651000565,,,,,534.4369114000583,534.5702459999593,535.5865123999538,535.4365071000066,,,,,,004,001,2023-05-31_17h32.50.612,time_exp,2022.2.5,60.01601229619099,
,,emo_pic\pneutral_7950.jpg,7,0.0561269,0.7,0,,,,,0,4,4,3,585.7206434999825,585.7206434999825,585.7206434999825,5.185185185185185,5.850238800048828,space,15.1226941999048,,,,,577.6709651000565,577.6709210400586,578.7042629000498,,,600.8879969000118,625.8717141000088,625.8717196400394,625.8884011000628,630.8718103000429,,,,,578.7042629000498,578.737659299979,579.737213699962,585.7206434999825,,,,,,004,001,2023-05-31_17h32.50.612,time_exp,2022.2.5,60.01601229619099,
,,emo_pic\pneutral_7100.jpg,3,0.1552196,0,0.4,,,,,0,5,5,1,634.9214199000271,634.9214199000271,634.9214199000271,3.0671296296296298,3.7001982000656426,space,10.128727499977686,,,,,630.8718103000429,630.8717571399757,631.9051262000576,,,645.0883719000267,670.0724344999762,670.0724110400188,670.0890595000237,675.0724739000434,,,,,631.9051262000576,632.0384978000075,633.0380588000407,634.9214199000271,,,,,,004,001,2023-05-31_17h32.50.612,time_exp,2022.2.5,60.01601229619099,
,,emo_pic\positive_high_8300.jpg,3,0.1552196,0,0.4,,,,,0,6,6,17,679.1054531000555,679.1054531000555,679.1054531000555,2.824074074074074,4.400217400048859,space,12.47395100002177,,,,,675.0724739000434,675.0724765400519,676.0891946000047,,,691.605625999975,716.5898282000562,716.5898204399855,716.6065012000035,721.5899065999547,,,,,676.0891946000047,676.2391887999838,677.2387717999518,679.1054531000555,,,,,,004,001,2023-05-31_17h32.50.612,time_exp,2022.2.5,60.01601229619099,
,,emo_pic\pnegative_low_2100.jpg,7,0.0561269,0.7,0,,,,,0,7,7,7,729.6232199999504,729.6232199999504,729.6232199999504,5.370370370370371,4.333552800002508,space,9.954301599995233,,,,,721.5899065999547,721.5898927399539,722.6065939000109,,,739.6066813999787,764.5905887000263,764.5905585400178,764.6072579000611,769.5906696000602,,,,,722.6065939000109,722.656579200062,723.6566130999709,729.6232199999504,,,,,,004,001,2023-05-31_17h32.50.612,time_exp,2022.2.5,60.01601229619099,
,,emo_pic\positive_low_2314.jpg,5,0.1152479,-0.7,0,,,,,0,8,8,14,775.6403128999518,775.6403128999518,775.6403128999518,5.0115740740740735,2.4336106999544427,space,11.905649799969979,,,,,769.5906696000602,769.5905932400492,770.623992000008,,,787.573823499959,812.5580159999663,812.5580072400044,812.5746506999712,817.5580959999934,,,,,770.623992000008,770.7073522000574,771.7069295999827,775.6403128999518,,,,,,004,001,2023-05-31_17h32.50.612,time_exp,2022.2.5,60.01601229619099,
,,emo_pic\positive_high_5621.jpg,5,0.1152479,-0.7,0,,,,,0,9,9,18,823.5910712999757,823.5910712999757,823.5910712999757,3.9699074074074074,2.566874700016342,space,12.67499579989817,,,,,817.5580959999934,817.5580799399759,818.5747546999482,,,836.2912882999517,861.2754522999749,861.2754328400479,861.2921156999655,866.2755304999882,,,,,818.5747546999482,818.6747457999736,819.6743254000321,823.5910712999757,,,,,,004,001,2023-05-31_17h32.50.612,time_exp,2022.2.5,60.01601229619099,
,,emo_pic\positive_high_8370.jpg,7,0.0561269,0.7,0,,,,,0,10,10,19,874.3085397999967,874.3085397999967,874.3085397999967,5.5324074074074066,3.53320859989617,space,11.206281800055876,,,,,866.2755304999882,866.2754935400444,867.2921793999849,,,885.5420187000418,910.526228499948,910.5262216400006,910.542898499989,915.5263185000513,,,,,867.2921793999849,867.3422125000507,868.3417784000048,874.3085397999967,,,,,,004,001,2023-05-31_17h32.50.612,time_exp,2022.2.5,60.01601229619099,
,,emo_pic\positive_low_2156.jpg,7,0.0561269,0.7,0,,,,,0,11,11,15,923.5593231000239,923.5593231000239,923.5593231000239,5.486111111111111,3.350274100084789,space,10.946450100047514,,,,,915.5263185000513,915.526297739998,916.5429973000428,,,934.52618419996,959.5099178999662,959.5098980400362,959.5265963999555,964.5101404000307,,,,,916.5429973000428,916.5929977999767,917.5925616000313,923.5593231000239,,,,,,004,001,2023-05-31_17h32.50.612,time_exp,2022.2.5,60.01601229619099,
,,emo_pic\positive_low_7325.jpg,3,0.1552196,0,0.4,,,,,0,12,12,13,968.5433511000592,968.5433511000592,968.5433511000592,2.4189814814814814,2.0836072999518365,space,5.995877600042149,,,,,964.5101404000307,964.5100930400076,965.5271226000041,,,974.5601160000078,999.5438765999861,999.5438713400508,999.5605486000422,1004.5439705000026,,,,,965.5271226000041,965.6766561999684,966.6766867999686,968.5433511000592,,,,,,004,001,2023-05-31_17h32.50.612,time_exp,2022.2.5,60.01601229619099,
,,emo_pic\pnegative_high_1201.jpg,5,0.1152479,-0.7,0,,,,,0,13,13,10,1010.5607329000486,1010.5607329000486,1010.5607329000486,3.993055555555556,2.416965899989009,space,4.601422399980947,,,,,1004.5439705000026,1004.5439473400475,1005.5440149999922,,,1015.1945335000055,1040.1783010000363,1040.1782805399853,1040.1949276999803,1045.178408900043,,,,,1005.5440149999922,1005.6606770999497,1006.6606673999922,1010.5607329000486,,,,,,004,001,2023-05-31_17h32.50.612,time_exp,2022.2.5,60.01601229619099,
,,emo_pic\pnegative_low_9331.jpg,1,0.1384903,0,-0.4,,,,,0,14,14,4,1047.3448844000231,1047.3448844000231,1047.3448844000231,0.3472222222222221,4.366999199963175,space,18.02604520006571,,,,,1045.178408900043,1045.1783921400202,1046.195064599975,,,1065.3954026000574,1090.3791278999997,1090.3791131399921,1090.3957968000323,1095.3791851999704,,,,,1046.195064599975,1046.3284239999484,1047.3448844000231,1047.1949140999932,,,,,,004,001,2023-05-31_17h32.50.612,time_exp,2022.2.5,60.01601229619099,
,,emo_pic\pnegative_high_6230.jpg,1,0.1384903,0,-0.4,,,,,0,15,15,8,1097.5457649000455,1097.5457649000455,1097.5457649000455,0.8564814814814812,2.8334805000340566,space,17.296418000012636,,,,,1095.3791851999704,1095.3791999399546,1096.395898799994,,,1114.8628480000189,1139.8465690000448,1139.8465541400365,1139.8632327000378,1144.8466412000125,,,,,1096.395898799994,1096.5292341000168,1097.5457649000455,1097.395757399965,,,,,,004,001,2023-05-31_17h32.50.612,time_exp,2022.2.5,60.01601229619099,
,,emo_pic\pnegative_low_2520.jpg,5,0.1152479,-0.7,0,,,,,0,16,16,6,1150.8796207000269,1150.8796207000269,1150.8796207000269,3.5879629629629632,4.733571000047959,space,10.538844399969094,,,,,1144.8466412000125,1144.8466321400483,1145.8633325999836,,,1161.446560399956,1186.4306266000494,1186.4306145400624,1186.4472923000576,1191.4307088999776,,,,,1145.8633325999836,1145.9633097000187,1146.9628992000362,1150.8796207000269,,,,,,004,001,2023-05-31_17h32.50.612,time_exp,2022.2.5,60.01601229619099,
,,emo_pic\pneutral_7233.jpg,5,0.1152479,-0.7,0,,,,,0,17,17,2,1197.4636676999507,1197.4636676999507,1197.4636676999507,4.004629629629629,2.633598400047049,space,6.530540599953383,,,,,1191.4307088999776,1191.4306883400423,1192.4473601999925,,,1204.013803299982,1228.9979557000333,1228.9979382400052,1229.0145757000428,1233.9979646999855,,,,,1192.4473601999925,1192.5473830000265,1193.546953400015,1197.4636676999507,,,,,,004,001,2023-05-31_17h32.50.612,time_exp,2022.2.5,60.01601229619099,
,,emo_pic\pnegative_high_1300.jpg,3,0.1552196,0,0.4,,,,,0,18,18,9,1238.0309845999582,1238.0309845999582,1238.0309845999582,3.0208333333333335,3.466855900012888,space,8.971404599957168,,,,,1233.9979646999855,1233.9979887400405,1235.0146742999787,,,1247.0311500000535,1272.0152736000018,1272.0152865399723,1272.0319707000162,1277.0153726000572,,,,,1235.0146742999787,1235.1646923000226,1236.1642868999625,1238.0309845999582,,,,,,004,001,2023-05-31_17h32.50.612,time_exp,2022.2.5,60.01601229619099,
,,emo_pic\positive_low_7340.jpg,1,0.1384903,0,-0.4,,,,,0,19,19,12,1279.181624299963,1279.181624299963,1279.181624299963,0.763888888888889,2.6335902999853715,space,10.188414499978535,,,,,1277.0153726000572,1277.0153610399575,1278.0320619000122,,,1289.3984220999992,1314.3821800999576,1314.3821620400413,1314.3988454999635,1319.3822567999596,,,,,1278.0320619000122,1278.1653809000272,1279.181624299963,1279.0316269999603,,,,,,004,001,2023-05-31_17h32.50.612,time_exp,2022.2.5,60.01601229619099,
,,,,,,,,,,,,,,,,,,,,,,,,,,,,,,,,,,,,,,,,,,,,1319.3822567999596,1319.3822567999596,1349.3831841000356,1349.3831841000356,None,004,001,2023-05-31_17h32.50.612,time_exp,2022.2.5,60.01601229619099,
