pink,pra_duration,emo_pic,duration,starduration,posx,posy,pra_trials.thisRepN,pra_trials.thisTrialN,pra_trials.thisN,pra_trials.thisIndex,trials.thisRepN,trials.thisTrialN,trials.thisN,trials.thisIndex,textreproductionstart.started,scale.started,key_next.started,scale.response,scale.rt,key_next.keys,key_next.rt,textWelcomeMessage.started,keyWelcome.started,keyWelcome.keys,keyWelcome.rt,textblank1000.started,sound_1.started,textblank1000.stopped,image.started,image.stopped,textrest.started,textready.started,sound_2.started,textrest.stopped,textready.stopped,start_2.started,start_3.started,start_3.keys,start_3.rt,emopic.started,redstar.started,emopic.stopped,redstar.stopped,textEndMessage.started,keyEnd.started,textEndMessage.stopped,keyEnd.stopped,keyEnd.keys,participant,session,date,expName,psychopyVersion,frameRate,
,,,,,,,,,,,,,,,27.120673199999146,27.120673199999146,27.120673199999146,0.0,145.61243149999063,space,152.174973999965,,,,,,,,,,,,,,,,,,,,,,,,,,,,007,001,2023-06-01_12h49.00.921,time_exp,2022.2.5,60.00909739254882,
,,,,,,,,,,,,,,,,,,,,,,179.3266988999676,179.3266988999676,space,4.432653099996969,,,,,,,,,,,,,,,,,,,,,,,,007,001,2023-06-01_12h49.00.921,time_exp,2022.2.5,60.00909739254882,
pink.png,6,,,,,,0,0,0,2,,,,,190.89354669989552,190.89354669989552,190.89354669989552,6.944444444444445,2.1335194999119267,space,3.7783485000254586,,,,,183.7767393999966,183.7767260099994,184.87675269995816,184.87675269995816,190.89354669989552,194.7102422999451,219.69400239991955,219.69399510996882,219.71063190000132,224.69417209993117,,,,,,,,,,,,,,007,001,2023-06-01_12h49.00.921,time_exp,2022.2.5,60.00909739254882,
pink.png,2,,,,,,0,1,1,1,,,,,227.74413169990294,227.74413169990294,227.74413169990294,2.0023148148148144,4.333644700003788,space,20.288504499942064,,,,,224.69417209993117,224.69404030996375,225.72743709990755,225.72743709990755,227.74413169990294,248.06110719998833,273.0448499999475,273.0448249099776,273.0614836999448,278.04492899996694,,,,,,,,,,,,,,007,001,2023-06-01_12h49.00.921,time_exp,2022.2.5,60.00909739254882,
pink.png,4,,,,,,0,2,2,0,,,,,283.0950164999813,283.0950164999813,283.0950164999813,5.0115740740740735,3.766976800048724,space,8.664604200050235,,,,,278.04492899996694,278.0449100099271,279.0782791998936,279.0782791998936,283.0950164999813,291.77847809996456,316.7622025999008,316.7621989099774,316.7788724999409,321.76225809997413,,,,,,,,,,,,,,007,001,2023-06-01_12h49.00.921,time_exp,2022.2.5,60.00909739254882,
,,,,,,,,,,,,,,,,,,,,,,,,,,,,,,,,,,,,321.76225809997413,321.76225809997413,space,17.085408400045708,,,,,,,,,,007,001,2023-06-01_12h49.00.921,time_exp,2022.2.5,60.00909739254882,
,,emo_pic\positive_low_7340.jpg,1,0.1384903,0,-0.4,,,,,0,0,0,12,341.0287987999618,341.0287987999618,341.0287987999618,1.0648148148148144,4.500521800015122,space,17.707106100046076,,,,,338.87922769994475,338.87920340998096,339.9294885999989,,,358.7795472999569,383.76325209997594,383.7632501099491,383.7799387999112,388.7633463999955,,,,,339.9294885999989,340.01256879989523,340.92880899994634,341.0287987999618,,,,,,007,001,2023-06-01_12h49.00.921,time_exp,2022.2.5,60.00909739254882,
,,emo_pic\pnegative_low_2520.jpg,5,0.1152479,-0.7,0,,,,,0,1,1,6,394.79631859995425,394.79631859995425,394.79631859995425,6.493055555555555,3.316432200022973,space,23.347167700063437,,,,,388.7633463999955,388.7633294099709,389.78002559999004,,,418.16377179999836,443.14753159997053,443.14751690996343,443.1642016998958,448.1476152999094,,,,,389.78002559999004,389.88002949999645,394.79631859995425,390.87958939990494,,,,,,007,001,2023-06-01_12h49.00.921,time_exp,2022.2.5,60.00909739254882,
,,emo_pic\pnegative_high_1201.jpg,5,0.1152479,-0.7,0,,,,,0,2,2,10,454.1807171999244,454.1807171999244,454.1807171999244,5.497685185185185,4.500607599969953,space,25.00355609995313,,,,,448.1476152999094,448.14759210995396,449.1642544999486,,,479.2313610999845,504.2151556999888,504.2151379099581,504.23178679996636,509.215231899987,,,,,449.1642544999486,449.26429969992023,454.1807171999244,450.2639033999294,,,,,,007,001,2023-06-01_12h49.00.921,time_exp,2022.2.5,60.00909739254882,
,,emo_pic\pneutral_5500.jpg,1,0.1384903,0,-0.4,,,,,0,3,3,0,511.3814885999309,511.3814885999309,511.3814885999309,1.4699074074074072,4.3337293999502435,space,18.811011699959636,,,,,509.215231899987,509.215216309973,510.2485862999456,,,530.2321893000044,555.2159512999933,555.2159364099847,555.2326137999771,560.2160268999869,,,,,510.2485862999456,510.36524769989774,511.24811109993607,511.3814885999309,,,,,,007,001,2023-06-01_12h49.00.921,time_exp,2022.2.5,60.00909739254882,
,,emo_pic\pnegative_high_1300.jpg,3,0.1552196,0,0.4,,,,,0,4,4,9,564.2490994998952,564.2490994998952,564.2490994998952,2.986111111111111,3.8004137000534683,space,21.814883299986832,,,,,560.2160268999869,560.2160147099988,561.2327118999092,,,586.0997324999189,611.0834888999816,611.0834721099585,611.1001525999745,616.0835686998907,,,,,561.2327118999092,561.3826541999588,564.2490994998952,562.3822743999772,,,,,,007,001,2023-06-01_12h49.00.921,time_exp,2022.2.5,60.00909739254882,
,,emo_pic\positive_low_2156.jpg,7,0.0561269,0.7,0,,,,,0,5,5,15,624.1165721999714,624.1165721999714,624.1165721999714,6.030092592592593,5.016907999990508,space,18.554846900049597,,,,,616.0835686998907,616.083559709927,617.100247800001,,,642.7001964999363,667.6839304999448,667.6839087100001,667.7005948999431,672.6844557999866,,,,,617.100247800001,617.1502513999585,624.1165721999714,618.1498220999492,,,,,,007,001,2023-06-01_12h49.00.921,time_exp,2022.2.5,60.00909739254882,
,,emo_pic\pnegative_high_6230.jpg,1,0.1384903,0,-0.4,,,,,0,6,6,8,674.8509988998994,674.8509988998994,674.8509988998994,1.446759259259259,4.6335500999120995,space,19.452903699944727,,,,,672.6844557999866,672.6844705099705,673.7010854999535,,,694.3346486999653,719.3183764999267,719.3183262099977,719.3350180999842,724.318608499947,,,,,673.7010854999535,673.8344766999362,674.7009932999499,674.8509988998994,,,,,,007,001,2023-06-01_12h49.00.921,time_exp,2022.2.5,60.00909739254882,
,,emo_pic\positive_high_8300.jpg,3,0.1552196,0,0.4,,,,,0,7,7,17,728.351563599892,728.351563599892,728.351563599892,3.414351851851852,4.733551799901761,space,18.16015370003879,,,,,724.318608499947,724.3185615099268,725.335299899918,,,746.5351493000053,771.5193570998963,771.519339309982,771.5360227999045,776.5194350999082,,,,,725.335299899918,725.4848464999814,728.351563599892,726.4848601999693,,,,,,007,001,2023-06-01_12h49.00.921,time_exp,2022.2.5,60.00909739254882,
,,emo_pic\pnegative_high_1120.jpg,7,0.0561269,0.7,0,,,,,0,8,8,11,784.5524560000049,784.5524560000049,784.5524560000049,6.076388888888888,4.48358969995752,space,15.303135699941777,,,,,776.5194350999082,776.5194227099186,777.5361248999834,,,799.8859914999921,824.8698876999551,824.8698657098925,824.8865477999207,829.8702877999749,,,,,777.5361248999834,777.5861229998991,784.5524560000049,778.5856854999438,,,,,,007,001,2023-06-01_12h49.00.921,time_exp,2022.2.5,60.00909739254882,
,,emo_pic\pnegative_low_6010.jpg,3,0.1552196,0,0.4,,,,,0,9,9,5,833.9032377999974,833.9032377999974,833.9032377999974,2.4421296296296298,3.7002480999799445,space,13.520319900009781,,,,,829.8702877999749,829.8702378099318,830.886975399917,,,847.4534317998914,872.4371966999024,872.4371769099729,872.4538622999098,877.4377453000052,,,,,830.886975399917,831.0369736999273,833.9032377999974,832.0365348999621,,,,,,007,001,2023-06-01_12h49.00.921,time_exp,2022.2.5,60.00909739254882,
,,emo_pic\pneutral_7233.jpg,5,0.1152479,-0.7,0,,,,,0,10,10,2,883.4707067999989,883.4707067999989,883.4707067999989,4.027777777777778,2.883592199999839,space,10.94461709994357,,,,,877.4377453000052,877.4377182099037,878.4543769999873,,,894.437520199921,919.4379651999334,919.4379537099506,919.4379651999334,924.4384734999621,,,,,878.4543769999873,878.5544110999908,883.4707067999989,879.5539796999656,,,,,,007,001,2023-06-01_12h49.00.921,time_exp,2022.2.5,60.00909739254882,
,,emo_pic\positive_low_2314.jpg,5,0.1152479,-0.7,0,,,,,0,11,11,14,930.4881477999734,930.4881477999734,930.4881477999734,4.027777777777778,2.6669081000145525,space,15.847750299959444,,,,,924.4384734999621,924.4384557099314,925.4718222999945,,,946.3550909999758,971.3389458999736,971.3389287099475,971.3556116999825,976.3393476998899,,,,,925.4718222999945,925.5385115999961,930.4881477999734,926.5380807999754,,,,,,007,001,2023-06-01_12h49.00.921,time_exp,2022.2.5,60.00909739254882,
,,emo_pic\positive_low_7325.jpg,3,0.1552196,0,0.4,,,,,0,12,12,13,980.3723062999779,980.3723062999779,980.3723062999779,1.0532407407407405,3.916894300025888,space,18.68450520001352,,,,,976.3393476998899,976.3393348098965,977.3560361999553,,,999.0892456999281,1024.0731487999437,1024.0731253099862,1024.0898062000051,1029.0735478999559,,,,,977.3560361999553,977.5060328999534,980.3723062999779,978.5056070999708,,,,,,007,001,2023-06-01_12h49.00.921,time_exp,2022.2.5,60.00909739254882,
,,emo_pic\pneutral_7950.jpg,7,0.0561269,0.7,0,,,,,0,13,13,3,1037.1065641999012,1037.1065641999012,1037.1065641999012,5.972222222222222,3.3170512999640778,space,14.973206999944523,,,,,1029.0735478999559,1029.0735316099367,1030.0902045998955,,,1052.106827099924,1077.091001899913,1077.0909921099433,1077.1076736999676,1082.091086899978,,,,,1030.0902045998955,1030.1402329999255,1037.1065641999012,1031.139798499993,,,,,,007,001,2023-06-01_12h49.00.921,time_exp,2022.2.5,60.00909739254882,
,,emo_pic\positive_high_8370.jpg,7,0.0561269,0.7,0,,,,,0,14,14,19,1090.1241006999044,1090.1241006999044,1090.1241006999044,5.069444444444445,3.150223100092262,space,13.507749899988994,,,,,1082.091086899978,1082.0910704099574,1083.1077375999885,,,1103.657660799916,1128.6415381999686,1128.641511809989,1128.6581893999828,1133.6418935999973,,,,,1083.1077375999885,1083.157769799931,1090.1241006999044,1084.1573345999932,,,,,,007,001,2023-06-01_12h49.00.921,time_exp,2022.2.5,60.00909739254882,
,,emo_pic\pnegative_low_2100.jpg,7,0.0561269,0.7,0,,,,,0,15,15,7,1141.675238900003,1141.675238900003,1141.675238900003,3.981481481481482,3.0002415999770164,space,20.99691560002975,,,,,1133.6418935999973,1133.641913309903,1134.6586137999548,,,1162.6922148999292,1187.6761424998986,1187.6761192099425,1187.6927241999656,1192.6762113999575,,,,,1134.6586137999548,1134.7086173999123,1141.675238900003,1135.7086316999048,,,,,,007,001,2023-06-01_12h49.00.921,time_exp,2022.2.5,60.00909739254882,
,,emo_pic\positive_high_8492.jpg,1,0.1384903,0,-0.4,,,,,0,16,16,16,1194.8424437999493,1194.8424437999493,1194.8424437999493,0.45138888888888923,3.1003050000872463,space,12.23056220007129,,,,,1192.6762113999575,1192.6761916099117,1193.7095701999497,,,1207.092654799926,1232.0768409000011,1232.076828209893,1232.0935117999325,1237.0769197999034,,,,,1193.7095701999497,1193.826230299892,1194.7091251999373,1194.8424437999493,,,,,,007,001,2023-06-01_12h49.00.921,time_exp,2022.2.5,60.00909739254882,
,,emo_pic\pnegative_low_9331.jpg,1,0.1384903,0,-0.4,,,,,0,17,17,4,1239.2434596999083,1239.2434596999083,1239.2434596999083,0.45138888888888923,4.533603299991228,space,13.221571199945174,,,,,1237.0769197999034,1237.076899609971,1238.0935925999656,,,1252.4937070999295,1277.477358999895,1277.477378709917,1277.4940663999878,1282.477626799955,,,,,1238.0935925999656,1238.2269003998954,1239.0934582999907,1239.2434596999083,,,,,,007,001,2023-06-01_12h49.00.921,time_exp,2022.2.5,60.00909739254882,
,,emo_pic\positive_high_5621.jpg,5,0.1152479,-0.7,0,,,,,0,18,18,18,1288.510626599891,1288.510626599891,1288.510626599891,2.4652777777777777,7.883679699967615,space,16.385978000005707,,,,,1282.477626799955,1282.4776177099907,1283.4943250999786,,,1304.9275299999863,1329.9113911999157,1329.9113744098927,1329.928054699907,1334.9117896999232,,,,,1283.4943250999786,1283.5943166998914,1288.510626599891,1284.5938765999163,,,,,,007,001,2023-06-01_12h49.00.921,time_exp,2022.2.5,60.00909739254882,
,,emo_pic\pneutral_7100.jpg,3,0.1552196,0,0.4,,,,,0,19,19,1,1338.944745099987,1338.944745099987,1338.944745099987,2.048611111111111,2.850190500030294,space,13.744742500013672,,,,,1334.9117896999232,1334.9117762099254,1335.928475499968,,,1352.7116209999658,1377.6953557999805,1377.6953428099864,1377.712022199994,1382.6955608999124,,,,,1335.928475499968,1336.078477599891,1338.944745099987,1337.0780406999402,,,,,,007,001,2023-06-01_12h49.00.921,time_exp,2022.2.5,60.00909739254882,
,,,,,,,,,,,,,,,,,,,,,,,,,,,,,,,,,,,,,,,,,,,,1382.6955608999124,1382.6955608999124,1412.6963740999345,1412.6963740999345,None,007,001,2023-06-01_12h49.00.921,time_exp,2022.2.5,60.00909739254882,
